<?xml version="1.0" encoding="UTF-8"?>
<Bundle xmlns="http://hl7.org/fhir" xmlns:xsi="http://www.w3.org/2001/XMLSchema-instance" xsi:schemaLocation="http://hl7.org/fhir ../../src-generated/schemas/fhir-single.xsd">
  <id value="pcde-communication-example"/>
  <meta>
    <lastUpdated value="2019-07-21T11:01:00+05:00"/>
  </meta>
  <type value="collection"/>
  <timestamp value="2019-07-21T11:01:00+05:00"/>
  <entry>
    <fullUrl value="http://example.org/fhir/Communication/1"/>
    <resource>
      <Communication>
        <id value="1"/>
        <basedOn>
          <reference value="Bundle/pcde-communicationrequest-example"/>
        </basedOn>
        <status value="completed"/>
        <subject>
          <reference value="Patient/1"/>
        </subject>
        <recipient>
          <reference value="Organization/1"/>
        </recipient>
        <sender>
          <reference value="Organization/2"/>
        </sender>
        <payload>
          <extension url="http://hl7.org/fhir/us/davinci-cdex/StructureDefinition/cdex-payload-clinical-note-type">
            <valueCodeableConcept>
              <coding>
                <system value="http://hl7.org/fhir/us/davinci-pcde/CodeSystem/PCDEDocumentCode"/>
                <code value="pcde"/>
              </coding>
            </valueCodeableConcept>
          </extension>
          <contentAttachment>
            <contentType value="application/fhir+xml"/>
            <data value="PD94bWwgdmVyc2lvbj0iMS4wIiBlbmNvZGluZz0iVVRGLTgiPz4KPEJ1bmRsZSB4bWxucz0iaHR0
              cDovL2hsNy5vcmcvZmhpciIgeG1sbnM6eHNpPSJodHRwOi8vd3d3LnczLm9yZy8yMDAxL1hNTFNj
              aGVtYS1pbnN0YW5jZSIgeHNpOnNjaGVtYUxvY2F0aW9uPSJodHRwOi8vaGw3Lm9yZy9maGlyIC4u
              Ly4uL3NyYy1nZW5lcmF0ZWQvc2NoZW1hcy9maGlyLXNpbmdsZS54c2QiPgogIDxpZCB2YWx1ZT0i
              cGNkZS1leGFtcGxlIi8+CiAgPG1ldGE+CiAgICA8bGFzdFVwZGF0ZWQgdmFsdWU9IjIwMTktMDct
              MjFUMTE6MDE6MDArMDU6MDAiLz4KICA8L21ldGE+CiAgPGlkZW50aWZpZXI+CiAgICA8c3lzdGVt
              IHZhbHVlPSJodHRwOi8vZXhhbXBsZS5vcmcvZG9jdW1lbnRJRHMiLz4KICAgIDx2YWx1ZSB2YWx1
              ZT0iQTEyMzQ1Ii8+CiAgPC9pZGVudGlmaWVyPgogIDx0eXBlIHZhbHVlPSJkb2N1bWVudCIvPgog
              IDx0aW1lc3RhbXAgdmFsdWU9IjIwMTktMDctMjFUMTE6MDE6MDArMDU6MDAiLz4KICA8ZW50cnk+
              CiAgICA8ZnVsbFVybCB2YWx1ZT0iaHR0cDovL2V4YW1wbGUub3JnL2ZoaXIvQ29tcG9zaXRpb24v
              MSIvPgogICAgPHJlc291cmNlPgogICAgICA8Q29tcG9zaXRpb24+CiAgICAgICAgPGlkIHZhbHVl
              PSIxIi8+CiAgICAgICAgPHN0YXR1cyB2YWx1ZT0iZmluYWwiLz4KICAgICAgICA8dHlwZT4KICAg
              ICAgICAgIDxjb2Rpbmc+CiAgICAgICAgICAgIDxzeXN0ZW0gdmFsdWU9Imh0dHA6Ly9obDcub3Jn
              L2ZoaXIvdXMvZGF2aW5jaS1wY2RlL0NvZGVTeXN0ZW0vUENERURvY3VtZW50Q29kZSIvPgogICAg
              ICAgICAgICA8Y29kZSB2YWx1ZT0icGNkZSIvPgogICAgICAgICAgPC9jb2Rpbmc+CiAgICAgICAg
              PC90eXBlPgogICAgICAgIDxzdWJqZWN0PgogICAgICAgICAgPHJlZmVyZW5jZSB2YWx1ZT0iUGF0
              aWVudC8xIi8+CiAgICAgICAgPC9zdWJqZWN0PgogICAgICAgIDxkYXRlIHZhbHVlPSIyMDE5LTA3
              LTIxVDIzOjA5OjAwKzA3OjAwIi8+CiAgICAgICAgPGF1dGhvcj4KICAgICAgICAgIDxyZWZlcmVu
              Y2UgdmFsdWU9IlByYWN0aXRpb25lci8xIi8+CiAgICAgICAgPC9hdXRob3I+CiAgICAgICAgPHRp
              dGxlIHZhbHVlPSJFeGFtcGxlIFBDREUgRG9jdW1lbnQgZm9yIERpYWJldGVzIHBhdGllbnQiLz4K
              ICAgICAgICA8ZXZlbnQ+CiAgICAgICAgICA8ZGV0YWlsPgogICAgICAgICAgICA8cmVmZXJlbmNl
              IHZhbHVlPSJDb3ZlcmFnZS8xIi8+CiAgICAgICAgICA8L2RldGFpbD4KICAgICAgICA8L2V2ZW50
              PgogICAgICAgIDxzZWN0aW9uPgogICAgICAgICAgPGNvZGU+CiAgICAgICAgICAgIDxjb2Rpbmc+
              CiAgICAgICAgICAgICAgPHN5c3RlbSB2YWx1ZT0iaHR0cDovL2hsNy5vcmcvZmhpci91cy9kYXZp
              bmNpLXBjZGUvQ29kZVN5c3RlbS9QQ0RFU2VjdGlvbkNvZGUiLz4KICAgICAgICAgICAgICA8Y29k
              ZSB2YWx1ZT0iYWN0aXZlVHJlYXRtZW50Ii8+CiAgICAgICAgICAgIDwvY29kaW5nPgogICAgICAg
              ICAgPC9jb2RlPgogICAgICAgICAgPHNlY3Rpb24+CiAgICAgICAgICAgIDxjb2RlPgogICAgICAg
              ICAgICAgIDxjb2Rpbmc+CiAgICAgICAgICAgICAgICA8c3lzdGVtIHZhbHVlPSJodHRwOi8vaGw3
              Lm9yZy9maGlyL3VzL2RhdmluY2ktcGNkZS9Db2RlU3lzdGVtL1BDREVTZWN0aW9uQ29kZSIvPgog
              ICAgICAgICAgICAgICAgPGNvZGUgdmFsdWU9InRyZWF0bWVudCIvPgogICAgICAgICAgICAgIDwv
              Y29kaW5nPgogICAgICAgICAgICA8L2NvZGU+CiAgICAgICAgICAgIDxlbnRyeT4KICAgICAgICAg
              ICAgICA8cmVmZXJlbmNlIHZhbHVlPSJDYXJlUGxhbi8xIi8+CiAgICAgICAgICAgIDwvZW50cnk+
              CiAgICAgICAgICA8L3NlY3Rpb24+CiAgICAgICAgICA8c2VjdGlvbj4KICAgICAgICAgICAgPGNv
              ZGU+CiAgICAgICAgICAgICAgPGNvZGluZz4KICAgICAgICAgICAgICAgIDxzeXN0ZW0gdmFsdWU9
              Imh0dHA6Ly9obDcub3JnL2ZoaXIvdXMvZGF2aW5jaS1wY2RlL0NvZGVTeXN0ZW0vUENERVNlY3Rp
              b25Db2RlIi8+CiAgICAgICAgICAgICAgICA8Y29kZSB2YWx1ZT0icHJpb3JDb3ZlcmFnZSIvPgog
              ICAgICAgICAgICAgIDwvY29kaW5nPgogICAgICAgICAgICA8L2NvZGU+CiAgICAgICAgICAgIDxl
              bnRyeT4KICAgICAgICAgICAgICA8cmVmZXJlbmNlIHZhbHVlPSJDbGFpbS8xIi8+CiAgICAgICAg
              ICAgIDwvZW50cnk+CiAgICAgICAgICAgIDxlbnRyeT4KICAgICAgICAgICAgICA8cmVmZXJlbmNl
              IHZhbHVlPSJDbGFpbVJlc3BvbnNlLzEiLz4KICAgICAgICAgICAgPC9lbnRyeT4KICAgICAgICAg
              IDwvc2VjdGlvbj4KICAgICAgICAgIDxzZWN0aW9uPgogICAgICAgICAgICA8Y29kZT4KICAgICAg
              ICAgICAgICA8Y29kaW5nPgogICAgICAgICAgICAgICAgPHN5c3RlbSB2YWx1ZT0iaHR0cDovL2hs
              Ny5vcmcvZmhpci91cy9kYXZpbmNpLXBjZGUvQ29kZVN5c3RlbS9QQ0RFU2VjdGlvbkNvZGUiLz4K
              ICAgICAgICAgICAgICAgIDxjb2RlIHZhbHVlPSJzdXBwb3J0aW5nSW5mbyIvPgogICAgICAgICAg
              ICAgIDwvY29kaW5nPgogICAgICAgICAgICA8L2NvZGU+CiAgICAgICAgICAgIDx0ZXh0PgogICAg
              ICAgICAgICAgIDxzdGF0dXMgdmFsdWU9ImdlbmVyYXRlZCIvPgogICAgICAgICAgICAgIDxkaXYg
              eG1sbnM9Imh0dHA6Ly93d3cudzMub3JnLzE5OTkveGh0bWwiPgogICAgICAgICAgICAgICAgICAg
              ICAgICAgICAgICAgIEpvZSBTbWl0aCBpcyBhIHN1YnNjcmliZXIgdG8gTWFyeWxhbmQgQ2FwaXRh
              bCBJbnN1cmFuY2UgQ29tcGFueS4gRHVyaW5nIGEgcmVndWxhciBwaHlzaWNhbCwgRHIuIEphbWVz
              IEdhcmRlbmVyLCBKb2XigJlzIHByaW1hcnkgY2FyZSBwaHlzaWNpYW4sIGRpYWdub3NlZCBhIHBv
              dGVudGlhbCBoZWFydCBwcm9ibGVtLCBhY3V0ZSBteW9jYXJkaWFsIGluZmFyY3Rpb247IHVuc3Bl
              Y2lmaWVkIHNpdGUuIAogICAgICAgICAgICAgICAgICAgICAgICAgICAgICAgIERyLiBHYXJkZW5l
              ciBoYWQgcmVmZXJyZWQgSm9lIHRvIERyLiBTdXNhbiBXYXRzb24sIGEgY2FyZGlvbG9naXN0IGZv
              ciBhIGNvbnN1bHRhdGlvbi4KICAgICAgICAgICAgICAgICAgICAgICAgICAgICAgICBEdXJpbmcg
              dGhlIGNvbnN1bHRhdGlvbiBleGFtaW5hdGlvbiwgRHIuIFdhdHNvbiBkZXRlcm1pbmVkIHRoYXQg
              Sm9l4oCZcyBkaWFnbm9zaXMgcmVxdWlyZXMgaG9zcGl0YWxpemF0aW9uIGFuZCBhIHN1cmdpY2Fs
              IHByb2NlZHVyZSwgYSB0cmlwbGUgYnlwYXNzIHZlbm91cyBncmFmdC4gCiAgICAgICAgICAgICAg
              ICAgICAgICAgICAgICAgICAgVGhlIG9wZXJhdGlvbiBhbmQgcmVjb3Zlcnkgd2FzIGF0IE1vbnRn
              b21lcnkgSG9zcGl0YWwuCiAgICAgICAgICAgICAgICAgICAgICAgICAgICA8L2Rpdj4KICAgICAg
              ICAgICAgPC90ZXh0PgogICAgICAgICAgICA8ZW50cnk+CiAgICAgICAgICAgICAgPHJlZmVyZW5j
              ZSB2YWx1ZT0iRG9jdW1lbnRSZWZlcmVuY2UvMSIvPgogICAgICAgICAgICA8L2VudHJ5PgogICAg
              ICAgICAgPC9zZWN0aW9uPgogICAgICAgIDwvc2VjdGlvbj4KICAgICAgPC9Db21wb3NpdGlvbj4K
              ICAgIDwvcmVzb3VyY2U+CiAgPC9lbnRyeT4KICA8ZW50cnk+CiAgICA8ZnVsbFVybCB2YWx1ZT0i
              aHR0cDovL2V4YW1wbGUub3JnL2ZoaXIvUGF0aWVudC8xIi8+CiAgICA8cmVzb3VyY2U+CiAgICAg
              IDxQYXRpZW50PgogICAgICAgIDxpZCB2YWx1ZT0iMSIvPgogICAgICAgIDxpZGVudGlmaWVyPgog
              ICAgICAgICAgPHN5c3RlbSB2YWx1ZT0iaHR0cDovL2V4YW1wbGUub3JnL01JTiIvPgogICAgICAg
              ICAgPHZhbHVlIHZhbHVlPSIxMjM0NTY3ODkwMSIvPgogICAgICAgIDwvaWRlbnRpZmllcj4KICAg
              ICAgICA8bmFtZT4KICAgICAgICAgIDxmYW1pbHkgdmFsdWU9IlNNSVRIIi8+CiAgICAgICAgICA8
              Z2l2ZW4gdmFsdWU9IkpPRSIvPgogICAgICAgIDwvbmFtZT4KICAgICAgPC9QYXRpZW50PgogICAg
              PC9yZXNvdXJjZT4KICA8L2VudHJ5PgogIDxlbnRyeT4KICAgIDxmdWxsVXJsIHZhbHVlPSJodHRw
              Oi8vZXhhbXBsZS5vcmcvZmhpci9Db3ZlcmFnZS8xIi8+CiAgICA8cmVzb3VyY2U+CiAgICAgIDxD
              b3ZlcmFnZT4KICAgICAgICA8aWQgdmFsdWU9IjEiLz4KICAgICAgICA8c3RhdHVzIHZhbHVlPSJh
              Y3RpdmUiLz4KICAgICAgICA8YmVuZWZpY2lhcnk+CiAgICAgICAgICA8cmVmZXJlbmNlIHZhbHVl
              PSJQYXRpZW50LzEiLz4KICAgICAgICA8L2JlbmVmaWNpYXJ5PgogICAgICAgIDxwYXlvcj4KICAg
              ICAgICAgIDxyZWZlcmVuY2UgdmFsdWU9Ik9yZ2FuaXphdGlvbi8xIi8+CiAgICAgICAgPC9wYXlv
              cj4KICAgICAgPC9Db3ZlcmFnZT4KICAgIDwvcmVzb3VyY2U+CiAgPC9lbnRyeT4KICA8ZW50cnk+
              CiAgICA8ZnVsbFVybCB2YWx1ZT0iaHR0cDovL2V4YW1wbGUub3JnL2ZoaXIvT3JnYW5pemF0aW9u
              LzEiLz4KICAgIDxyZXNvdXJjZT4KICAgICAgPE9yZ2FuaXphdGlvbj4KICAgICAgICA8aWQgdmFs
              dWU9IjEiLz4KICAgICAgICA8aWRlbnRpZmllcj4KICAgICAgICAgIDxzeXN0ZW0gdmFsdWU9Imh0
              dHA6Ly9leGFtcGxlLm9yZy9FVElOIi8+CiAgICAgICAgICA8dmFsdWUgdmFsdWU9Ijc4OTMxMiIv
              PgogICAgICAgIDwvaWRlbnRpZmllcj4KICAgICAgICA8bmFtZSB2YWx1ZT0iTUFSWUxBTkQgQ0FQ
              SVRBTCBJTlNVUkFOQ0UgQ09NUEFOWSIvPgogICAgICA8L09yZ2FuaXphdGlvbj4KICAgIDwvcmVz
              b3VyY2U+CiAgPC9lbnRyeT4KICA8ZW50cnk+CiAgICA8ZnVsbFVybCB2YWx1ZT0iaHR0cDovL2V4
              YW1wbGUub3JnL2ZoaXIvQ2FyZVBsYW4vMSIvPgogICAgPHJlc291cmNlPgogICAgICA8Q2FyZVBs
              YW4+CiAgICAgICAgPGlkIHZhbHVlPSIxIi8+CiAgICAgICAgPGluc3RhbnRpYXRlc1VyaSB2YWx1
              ZT0iaHR0cDovL2V4YW1wbGUub3JnL2NvbnN1bHRSZXZpZXdVUkkiLz4KICAgICAgICA8c3RhdHVz
              IHZhbHVlPSJhY3RpdmUiLz4KICAgICAgICA8aW50ZW50IHZhbHVlPSJvcmRlciIvPgogICAgICAg
              IDxjYXRlZ29yeT4KICAgICAgICAgIDxjb2Rpbmc+CiAgICAgICAgICAgIDxzeXN0ZW0gdmFsdWU9
              Imh0dHA6Ly9obDcub3JnL2ZoaXIvdXMvY29yZS9Db2RlU3lzdGVtL2NhcmVwbGFuLWNhdGVnb3J5
              Ii8+CiAgICAgICAgICAgIDxjb2RlIHZhbHVlPSJhc3Nlc3MtcGxhbiIvPgogICAgICAgICAgPC9j
              b2Rpbmc+CiAgICAgICAgPC9jYXRlZ29yeT4KICAgICAgICA8c3ViamVjdD4KICAgICAgICAgIDxy
              ZWZlcmVuY2UgdmFsdWU9IlBhdGllbnQvMSIvPgogICAgICAgIDwvc3ViamVjdD4KICAgICAgICA8
              YWN0aXZpdHk+CiAgICAgICAgICA8ZGV0YWlsPgogICAgICAgICAgICA8Y29kZT4KICAgICAgICAg
              ICAgICA8Y29kaW5nPgogICAgICAgICAgICAgICAgPHN5c3RlbSB2YWx1ZT0iaHR0cDovL2V4YW1w
              bGUub3JnL1NFUlZJQ0VfVFlQRV9DT0RFIi8+CiAgICAgICAgICAgICAgICA8Y29kZSB2YWx1ZT0i
              MyIvPgogICAgICAgICAgICAgICAgPGRpc3BsYXkgdmFsdWU9IkNvbnN1bHRhdGlvbiIvPgogICAg
              ICAgICAgICAgIDwvY29kaW5nPgogICAgICAgICAgICA8L2NvZGU+CiAgICAgICAgICAgIDxyZWFz
              b25SZWZlcmVuY2U+CiAgICAgICAgICAgICAgPHJlZmVyZW5jZSB2YWx1ZT0iQ29uZGl0aW9uLzEi
              Lz4KICAgICAgICAgICAgPC9yZWFzb25SZWZlcmVuY2U+CiAgICAgICAgICAgIDxzdGF0dXMgdmFs
              dWU9ImluLXByb2dyZXNzIi8+CiAgICAgICAgICA8L2RldGFpbD4KICAgICAgICA8L2FjdGl2aXR5
              PgogICAgICA8L0NhcmVQbGFuPgogICAgPC9yZXNvdXJjZT4KICA8L2VudHJ5PgogIDxlbnRyeT4K
              ICAgIDxmdWxsVXJsIHZhbHVlPSJodHRwOi8vZXhhbXBsZS5vcmcvZmhpci9DbGFpbS8xIi8+CiAg
              ICA8cmVzb3VyY2U+CiAgICAgIDxDbGFpbT4KICAgICAgICA8aWQgdmFsdWU9IjEiLz4KICAgICAg
              ICA8aWRlbnRpZmllcj4KICAgICAgICAgIDxzeXN0ZW0gdmFsdWU9Imh0dHA6Ly9leGFtcGxlLm9y
              Zy9QQVRJRU5UX0VWRU5UX1RSQUNFX05VTUJFUiIvPgogICAgICAgICAgPHZhbHVlIHZhbHVlPSIx
              MTEwOTkiLz4KICAgICAgICA8L2lkZW50aWZpZXI+CiAgICAgICAgPHN0YXR1cyB2YWx1ZT0iYWN0
              aXZlIi8+CiAgICAgICAgPHR5cGU+CiAgICAgICAgICA8Y29kaW5nPgogICAgICAgICAgICA8c3lz
              dGVtIHZhbHVlPSJodHRwOi8vZXhhbXBsZS5vcmcvVU1fUkVRVUVTVF9DQVRFR09SWV9DT0RFIi8+
              CiAgICAgICAgICAgIDxjb2RlIHZhbHVlPSJTQyIvPgogICAgICAgICAgICA8ZGlzcGxheSB2YWx1
              ZT0iU3BlY2lhbHR5IENhcmUgUmV2aWV3Ii8+CiAgICAgICAgICA8L2NvZGluZz4KICAgICAgICA8
              L3R5cGU+CiAgICAgICAgPHVzZSB2YWx1ZT0icHJlYXV0aG9yaXphdGlvbiI+CiAgICAgICAgICA8
              ZXh0ZW5zaW9uIHVybD0iaHR0cDovL2hsNy5vcmcvZmhpci91cy9kYXZpbmNpLXBhcy9TdHJ1Y3R1
              cmVEZWZpbml0aW9uL2V4dGVuc2lvbi1jZXJ0aWZpY2F0aW9uVHlwZSI+CiAgICAgICAgICAgIDx2
              YWx1ZUNvZGUgdmFsdWU9IkkiLz4KICAgICAgICAgIDwvZXh0ZW5zaW9uPgogICAgICAgIDwvdXNl
              PgogICAgICAgIDxwYXRpZW50PgogICAgICAgICAgPHJlZmVyZW5jZSB2YWx1ZT0iUGF0aWVudC8x
              Ii8+CiAgICAgICAgPC9wYXRpZW50PgogICAgICAgIDxjcmVhdGVkIHZhbHVlPSIyMDE5LTA3LTIw
              Ii8+CiAgICAgICAgPGluc3VyZXI+CiAgICAgICAgICA8cmVmZXJlbmNlIHZhbHVlPSJPcmdhbml6
              YXRpb24vMSIvPgogICAgICAgIDwvaW5zdXJlcj4KICAgICAgICA8cHJvdmlkZXI+CiAgICAgICAg
              ICA8cmVmZXJlbmNlIHZhbHVlPSJQcmFjdGl0aW9uZXIvMSIvPgogICAgICAgIDwvcHJvdmlkZXI+
              CiAgICAgICAgPHByaW9yaXR5PgogICAgICAgICAgPGNvZGluZz4KICAgICAgICAgICAgPHN5c3Rl
              bSB2YWx1ZT0iaHR0cDovL3Rlcm1pbm9sb2d5L2hsNy5vcmcvQ29kZVN5c3RlbS9wcm9jZXNzcHJp
              b3JpdHkiLz4KICAgICAgICAgICAgPGNvZGUgdmFsdWU9Im5vcm1hbCIvPgogICAgICAgICAgICA8
              ZGlzcGxheSB2YWx1ZT0iTm9ybWFsIi8+CiAgICAgICAgICA8L2NvZGluZz4KICAgICAgICA8L3By
              aW9yaXR5PgogICAgICAgIDxwcmVzY3JpcHRpb24+CiAgICAgICAgICA8ZXh0ZW5zaW9uIHVybD0i
              aHR0cDovL2hsNy5vcmcvZmhpci91cy9kYXZpbmNpLXBhcy9TdHJ1Y3R1cmVEZWZpbml0aW9uL2V4
              dGVuc2lvbi1yZXF1ZXN0ZWRTZXJ2aWNlIj4KICAgICAgICAgICAgPHZhbHVlUmVmZXJlbmNlPgog
              ICAgICAgICAgICAgIDxyZWZlcmVuY2UgdmFsdWU9IlNlcnZpY2VSZXF1ZXN0LzEiLz4KICAgICAg
              ICAgICAgPC92YWx1ZVJlZmVyZW5jZT4KICAgICAgICAgIDwvZXh0ZW5zaW9uPgogICAgICAgICAg
              PGRpc3BsYXkgdmFsdWU9InNlZSByZXF1ZXN0ZWQgc2VydmljZSBleHRlbnNpb24iLz4KICAgICAg
              ICA8L3ByZXNjcmlwdGlvbj4KICAgICAgICA8ZGlhZ25vc2lzPgogICAgICAgICAgPHNlcXVlbmNl
              IHZhbHVlPSIxIi8+CiAgICAgICAgICA8ZGlhZ25vc2lzUmVmZXJlbmNlPgogICAgICAgICAgICA8
              cmVmZXJlbmNlIHZhbHVlPSJDb25kaXRpb24vMSIvPgogICAgICAgICAgPC9kaWFnbm9zaXNSZWZl
              cmVuY2U+CiAgICAgICAgPC9kaWFnbm9zaXM+CiAgICAgICAgPGluc3VyYW5jZT4KICAgICAgICAg
              IDxzZXF1ZW5jZSB2YWx1ZT0iMSIvPgogICAgICAgICAgPGZvY2FsIHZhbHVlPSJ0cnVlIi8+CiAg
              ICAgICAgICA8Y292ZXJhZ2U+CiAgICAgICAgICAgIDxyZWZlcmVuY2UgdmFsdWU9IkNvdmVyYWdl
              LzEiLz4KICAgICAgICAgIDwvY292ZXJhZ2U+CiAgICAgICAgPC9pbnN1cmFuY2U+CiAgICAgIDwv
              Q2xhaW0+CiAgICA8L3Jlc291cmNlPgogIDwvZW50cnk+CiAgPGVudHJ5PgogICAgPGZ1bGxVcmwg
              dmFsdWU9Imh0dHA6Ly9leGFtcGxlLm9yZy9maGlyL0NsYWltUmVzcG9uc2UvMSIvPgogICAgPHJl
              c291cmNlPgogICAgICA8Q2xhaW1SZXNwb25zZT4KICAgICAgICA8aWQgdmFsdWU9IjEiLz4KICAg
              ICAgICA8ZXh0ZW5zaW9uIHVybD0iaHR0cDovL2hsNy5vcmcvZmhpci91cy9kYXZpbmNpLXBhcy9T
              dHJ1Y3R1cmVEZWZpbml0aW9uL2V4dGVuc2lvbi1yZXZpZXdBY3Rpb24iPgogICAgICAgICAgPHZh
              bHVlQ29kZSB2YWx1ZT0iQTEiLz4KICAgICAgICA8L2V4dGVuc2lvbj4KICAgICAgICA8ZXh0ZW5z
              aW9uIHVybD0iaHR0cDovL2hsNy5vcmcvZmhpci91cy9kYXZpbmNpLXBhcy9TdHJ1Y3R1cmVEZWZp
              bml0aW9uL2V4dGVuc2lvbi1hdXRob3JpemVkRXZlbnREYXRlIj4KICAgICAgICAgIDx2YWx1ZVBl
              cmlvZD4KICAgICAgICAgICAgPHN0YXJ0IHZhbHVlPSIyMDA1LTA1LTAyIi8+CiAgICAgICAgICAg
              IDxlbmQgdmFsdWU9IjIwMDUtMDYtMDIiLz4KICAgICAgICAgIDwvdmFsdWVQZXJpb2Q+CiAgICAg
              ICAgPC9leHRlbnNpb24+CiAgICAgICAgPGlkZW50aWZpZXI+CiAgICAgICAgICA8c3lzdGVtIHZh
              bHVlPSJodHRwOi8vZXhhbXBsZS5vcmcvUkVWSUVXX0lERU5USUZJQ0FUSU9OX05VTUJFUiIvPgog
              ICAgICAgICAgPHZhbHVlIHZhbHVlPSJBVVRIMDAwMSIvPgogICAgICAgIDwvaWRlbnRpZmllcj4K
              ICAgICAgICA8c3RhdHVzIHZhbHVlPSJhY3RpdmUiLz4KICAgICAgICA8dHlwZT4KICAgICAgICAg
              IDxjb2Rpbmc+CiAgICAgICAgICAgIDxzeXN0ZW0gdmFsdWU9Imh0dHA6Ly90ZXJtaW5vbG9neS5o
              bDcub3JnL0NvZGVTeXN0ZW0vY2xhaW0tdHlwZSIvPgogICAgICAgICAgICA8Y29kZSB2YWx1ZT0i
              cHJvZmVzc2lvbmFsIi8+CiAgICAgICAgICA8L2NvZGluZz4KICAgICAgICA8L3R5cGU+CiAgICAg
              ICAgPHVzZSB2YWx1ZT0icHJlYXV0aG9yaXphdGlvbiIvPgogICAgICAgIDxwYXRpZW50PgogICAg
              ICAgICAgPHJlZmVyZW5jZSB2YWx1ZT0iUGF0aWVudC8xIi8+CiAgICAgICAgPC9wYXRpZW50Pgog
              ICAgICAgIDxjcmVhdGVkIHZhbHVlPSIyMDE5LTA3LTIwIi8+CiAgICAgICAgPGluc3VyZXI+CiAg
              ICAgICAgICA8cmVmZXJlbmNlIHZhbHVlPSJPcmdhbml6YXRpb24vMSIvPgogICAgICAgIDwvaW5z
              dXJlcj4KICAgICAgICA8cmVxdWVzdG9yPgogICAgICAgICAgPHJlZmVyZW5jZSB2YWx1ZT0iUHJh
              Y3RpdGlvbmVyLzEiLz4KICAgICAgICA8L3JlcXVlc3Rvcj4KICAgICAgICA8b3V0Y29tZSB2YWx1
              ZT0iY29tcGxldGUiLz4KICAgICAgPC9DbGFpbVJlc3BvbnNlPgogICAgPC9yZXNvdXJjZT4KICA8
              L2VudHJ5PgogIDxlbnRyeT4KICAgIDxmdWxsVXJsIHZhbHVlPSJodHRwOi8vZXhhbXBsZS5vcmcv
              Zmhpci9QcmFjdGl0aW9uZXIvMSIvPgogICAgPHJlc291cmNlPgogICAgICA8UHJhY3RpdGlvbmVy
              PgogICAgICAgIDxpZCB2YWx1ZT0iMSIvPgogICAgICAgIDxpZGVudGlmaWVyPgogICAgICAgICAg
              PHN5c3RlbSB2YWx1ZT0iaHR0cDovL2V4YW1wbGUub3JnL0VUSU4iLz4KICAgICAgICAgIDx2YWx1
              ZSB2YWx1ZT0iODE4OTk5MTIzNCIvPgogICAgICAgIDwvaWRlbnRpZmllcj4KICAgICAgICA8bmFt
              ZT4KICAgICAgICAgIDxmYW1pbHkgdmFsdWU9IkdBUkRFTkVSIi8+CiAgICAgICAgICA8Z2l2ZW4g
              dmFsdWU9IkpBTUVTIi8+CiAgICAgICAgPC9uYW1lPgogICAgICA8L1ByYWN0aXRpb25lcj4KICAg
              IDwvcmVzb3VyY2U+CiAgPC9lbnRyeT4KICA8ZW50cnk+CiAgICA8ZnVsbFVybCB2YWx1ZT0iaHR0
              cDovL2V4YW1wbGUub3JnL2ZoaXIvU2VydmljZVJlcXVlc3QvMSIvPgogICAgPHJlc291cmNlPgog
              ICAgICA8U2VydmljZVJlcXVlc3Q+CiAgICAgICAgPGlkIHZhbHVlPSIxIi8+CiAgICAgICAgPHN0
              YXR1cyB2YWx1ZT0iYWN0aXZlIi8+CiAgICAgICAgPGludGVudCB2YWx1ZT0icGxhbiIvPgogICAg
              ICAgIDxjb2RlPgogICAgICAgICAgPGNvZGluZz4KICAgICAgICAgICAgPHN5c3RlbSB2YWx1ZT0i
              aHR0cDovL2V4YW1wbGUub3JnL1NFUlZJQ0VfVFlQRV9DT0RFIi8+CiAgICAgICAgICAgIDxjb2Rl
              IHZhbHVlPSIzIi8+CiAgICAgICAgICAgIDxkaXNwbGF5IHZhbHVlPSJDb25zdWx0YXRpb24iLz4K
              ICAgICAgICAgIDwvY29kaW5nPgogICAgICAgIDwvY29kZT4KICAgICAgICA8cXVhbnRpdHlRdWFu
              dGl0eT4KICAgICAgICAgIDx2YWx1ZSB2YWx1ZT0iMSIvPgogICAgICAgICAgPHVuaXQgdmFsdWU9
              IlZTIi8+CiAgICAgICAgPC9xdWFudGl0eVF1YW50aXR5PgogICAgICAgIDxzdWJqZWN0PgogICAg
              ICAgICAgPHJlZmVyZW5jZSB2YWx1ZT0iUGF0aWVudC8xIi8+CiAgICAgICAgPC9zdWJqZWN0Pgog
              ICAgICAgIDxwZXJmb3JtZXI+CiAgICAgICAgICA8cmVmZXJlbmNlIHZhbHVlPSJQcmFjdGl0aW9u
              ZXJSb2xlLzEiLz4KICAgICAgICA8L3BlcmZvcm1lcj4KICAgICAgPC9TZXJ2aWNlUmVxdWVzdD4K
              ICAgIDwvcmVzb3VyY2U+CiAgPC9lbnRyeT4KICA8ZW50cnk+CiAgICA8ZnVsbFVybCB2YWx1ZT0i
              aHR0cDovL2V4YW1wbGUub3JnL2ZoaXIvQ29uZGl0aW9uLzEiLz4KICAgIDxyZXNvdXJjZT4KICAg
              ICAgPENvbmRpdGlvbj4KICAgICAgICA8aWQgdmFsdWU9IjEiLz4KICAgICAgICA8Y29kZT4KICAg
              ICAgICAgIDxjb2Rpbmc+CiAgICAgICAgICAgIDxzeXN0ZW0gdmFsdWU9Imh0dHA6Ly9obDcub3Jn
              L2ZoaXIvc2lkL2ljZC05LWNtIi8+CiAgICAgICAgICAgIDxjb2RlIHZhbHVlPSI0MTAuOTAiLz4K
              ICAgICAgICAgIDwvY29kaW5nPgogICAgICAgIDwvY29kZT4KICAgICAgICA8c3ViamVjdD4KICAg
              ICAgICAgIDxyZWZlcmVuY2UgdmFsdWU9IlBhdGllbnQvMSIvPgogICAgICAgIDwvc3ViamVjdD4K
              ICAgICAgICA8cmVjb3JkZWREYXRlIHZhbHVlPSIyMDA1LTA0LTMwIi8+CiAgICAgIDwvQ29uZGl0
              aW9uPgogICAgPC9yZXNvdXJjZT4KICA8L2VudHJ5PgogIDxlbnRyeT4KICAgIDxmdWxsVXJsIHZh
              bHVlPSJodHRwOi8vZXhhbXBsZS5vcmcvZmhpci9QcmFjdGl0aW9uZXJSb2xlLzEiLz4KICAgIDxy
              ZXNvdXJjZT4KICAgICAgPFByYWN0aXRpb25lclJvbGU+CiAgICAgICAgPGlkIHZhbHVlPSIxIi8+
              CiAgICAgICAgPHByYWN0aXRpb25lcj4KICAgICAgICAgIDxyZWZlcmVuY2UgdmFsdWU9IlByYWN0
              aXRpb25lci8yIi8+CiAgICAgICAgPC9wcmFjdGl0aW9uZXI+CiAgICAgICAgPGNvZGU+CiAgICAg
              ICAgICA8Y29kaW5nPgogICAgICAgICAgICA8c3lzdGVtIHZhbHVlPSJodHRwOi8vZXhhbXBsZS5v
              cmcvRU5USVRZX0lERU5USUZJRVJfQ09ERSIvPgogICAgICAgICAgICA8Y29kZSB2YWx1ZT0iMVAi
              Lz4KICAgICAgICAgICAgPGRpc3BsYXkgdmFsdWU9IlByb3ZpZGVyIi8+CiAgICAgICAgICA8L2Nv
              ZGluZz4KICAgICAgICA8L2NvZGU+CiAgICAgIDwvUHJhY3RpdGlvbmVyUm9sZT4KICAgIDwvcmVz
              b3VyY2U+CiAgPC9lbnRyeT4KICA8ZW50cnk+CiAgICA8ZnVsbFVybCB2YWx1ZT0iaHR0cDovL2V4
              YW1wbGUub3JnL2ZoaXIvUHJhY3RpdGlvbmVyLzIiLz4KICAgIDxyZXNvdXJjZT4KICAgICAgPFBy
              YWN0aXRpb25lcj4KICAgICAgICA8aWQgdmFsdWU9IjIiLz4KICAgICAgICA8aWRlbnRpZmllcj4K
              ICAgICAgICAgIDxzeXN0ZW0gdmFsdWU9Imh0dHA6Ly9leGFtcGxlLm9yZy9TU04iLz4KICAgICAg
              ICAgIDx2YWx1ZSB2YWx1ZT0iOTg3NjU0MzIxIi8+CiAgICAgICAgPC9pZGVudGlmaWVyPgogICAg
              ICAgIDxuYW1lPgogICAgICAgICAgPGZhbWlseSB2YWx1ZT0iV0FUU09OIi8+CiAgICAgICAgICA8
              Z2l2ZW4gdmFsdWU9IlNVU0FOIi8+CiAgICAgICAgPC9uYW1lPgogICAgICAgIDx0ZWxlY29tPgog
              ICAgICAgICAgPHN5c3RlbSB2YWx1ZT0icGhvbmUiLz4KICAgICAgICAgIDx2YWx1ZSB2YWx1ZT0i
              NDAyOTk5MzQ1NiIvPgogICAgICAgIDwvdGVsZWNvbT4KICAgICAgPC9QcmFjdGl0aW9uZXI+CiAg
              ICA8L3Jlc291cmNlPgogIDwvZW50cnk+CiAgPGVudHJ5PgogICAgPGZ1bGxVcmwgdmFsdWU9Imh0
              dHA6Ly9leGFtcGxlLm9yZy9maGlyL0RvY3VtZW50UmVmZXJlbmNlLzEiLz4KICAgIDxyZXNvdXJj
              ZT4KICAgICAgPERvY3VtZW50UmVmZXJlbmNlPgogICAgICAgIDxpZCB2YWx1ZT0iMSIvPgogICAg
              ICAgIDxzdGF0dXMgdmFsdWU9ImN1cnJlbnQiLz4KICAgICAgICA8ZG9jU3RhdHVzIHZhbHVlPSJm
              aW5hbCIvPgogICAgICAgIDx0eXBlPgogICAgICAgICAgPGNvZGluZz4KICAgICAgICAgICAgPHN5
              c3RlbSB2YWx1ZT0iaHR0cDovL2xvaW5jLm9yZyIvPgogICAgICAgICAgICA8Y29kZSB2YWx1ZT0i
              MTg4NDItNSIvPgogICAgICAgICAgPC9jb2Rpbmc+CiAgICAgICAgPC90eXBlPgogICAgICAgIDxz
              dWJqZWN0PgogICAgICAgICAgPHJlZmVyZW5jZSB2YWx1ZT0iUGF0aWVudC8xIi8+CiAgICAgICAg
              PC9zdWJqZWN0PgogICAgICAgIDxhdXRob3I+CiAgICAgICAgICA8cmVmZXJlbmNlIHZhbHVlPSJQ
              cmFjdGl0aW9uZXIvMSIvPgogICAgICAgIDwvYXV0aG9yPgogICAgICAgIDxjb250ZW50PgogICAg
              ICAgICAgPGF0dGFjaG1lbnQ+CiAgICAgICAgICAgIDx1cmwgdmFsdWU9Imh0dHA6Ly9leGFtcGxl
              Lm9yZy9EaXNjaGFyZ2VTdW1tYXJ5RG9jdW1lbnQiLz4KICAgICAgICAgIDwvYXR0YWNobWVudD4K
              ICAgICAgICA8L2NvbnRlbnQ+CiAgICAgIDwvRG9jdW1lbnRSZWZlcmVuY2U+CiAgICA8L3Jlc291
              cmNlPgogIDwvZW50cnk+CjwvQnVuZGxlPgo="/>
          </contentAttachment>
        </payload>
      </Communication>
    </resource>
  </entry>
  <entry>
    <fullUrl value="http://example.org/fhir/Patient/1"/>
    <resource>
      <Patient>
        <id value="1"/>
        <identifier>
          <system value="http://example.org/MIN"/>
          <value value="12345678901"/>
        </identifier>
        <name>
          <family value="SMITH"/>
          <given value="JOE"/>
        </name>
      </Patient>
    </resource>
  </entry>
  <entry>
    <fullUrl value="http://example.org/fhir/Organization/1"/>
    <resource>
      <Organization>
        <id value="1"/>
        <identifier>
          <system value="http://example.org/ETIN"/>
          <value value="789312"/>
        </identifier>
        <name value="MARYLAND CAPITAL INSURANCE COMPANY"/>
      </Organization>
    </resource>
  </entry>
  <entry>
    <fullUrl value="http://example.org/fhir/Organization/2"/>
    <resource>
      <Organization>
        <id value="1"/>
        <identifier>
          <system value="http://example.org/ETIN"/>
          <value value="897456"/>
        </identifier>
        <name value="MARYLAND GLOBAL INSURANCE COMPANY"/>
      </Organization>
    </resource>
  </entry>
</Bundle>
