<?xml version="1.0" encoding="UTF-8"?>
<Bundle xmlns="http://hl7.org/fhir" xmlns:xsi="http://www.w3.org/2001/XMLSchema-instance" xsi:schemaLocation="http://hl7.org/fhir ../../src-generated/schemas/fhir-single.xsd">
  <id value="pcde-communicationrequest-example"/>
  <meta>
    <lastUpdated value="2019-07-21T11:01:00+05:00"/>
  </meta>
  <type value="collection"/>
  <timestamp value="2019-07-21T11:01:00+05:00"/>
  <entry>
    <fullUrl value="http://example.org/fhir/CommunicationRequest/1"/>
    <resource>
      <CommunicationRequest>
        <id value="1"/>
        <status value="active"/>
        <subject>
          <reference value="Patient/1"/>
        </subject>
        <payload>
          <extension url="http://hl7.org/fhir/us/davinci-cdex/StructureDefinition/cdex-payload-clinical-note-type">
            <valueCodeableConcept>
              <coding>
                <system value="http://hl7.org/fhir/us/davinci-pcde/CodeSystem/PCDEDocumentCode"/>
                <code value="pcde"/>
              </coding>
            </valueCodeableConcept>
          </extension>
          <contentString value="Please send previous coverage information."/>
        </payload>
        <requester>
          <reference value="Organization/1"/>
        </requester>
        <recipient>
          <reference value="Organization/1"/>
        </recipient>
        <sender>
          <reference value="Organization/2"/>
        </sender>
      </CommunicationRequest>
    </resource>
  </entry>
  <entry>
    <fullUrl value="http://example.org/fhir/Patient/1"/>
    <resource>
      <Patient>
        <id value="1"/>
        <identifier>
          <system value="http://example.org/MIN"/>
          <value value="12345678901"/>
        </identifier>
        <name>
          <family value="SMITH"/>
          <given value="JOE"/>
        </name>
      </Patient>
    </resource>
  </entry>
  <entry>
    <fullUrl value="http://example.org/fhir/Organization/1"/>
    <resource>
      <Organization>
        <id value="1"/>
        <identifier>
          <system value="http://example.org/ETIN"/>
          <value value="789312"/>
        </identifier>
        <name value="MARYLAND CAPITAL INSURANCE COMPANY"/>
      </Organization>
    </resource>
  </entry>
  <entry>
    <fullUrl value="http://example.org/fhir/Organization/2"/>
    <resource>
      <Organization>
        <id value="1"/>
        <identifier>
          <system value="http://example.org/ETIN"/>
          <value value="897456"/>
        </identifier>
        <name value="MARYLAND GLOBAL INSURANCE COMPANY"/>
      </Organization>
    </resource>
  </entry>
</Bundle>
