<?xml version="1.0" encoding="UTF-8"?>
<Bundle xmlns="http://hl7.org/fhir" xmlns:xsi="http://www.w3.org/2001/XMLSchema-instance" xsi:schemaLocation="http://hl7.org/fhir ../../input-cache/schemas/R4/fhir-single.xsd">
  <id value="pcde-document"/>
  <meta>
    <lastUpdated value="2019-07-21T11:01:00+05:00"/>
  </meta>
  <identifier>
    <system value="http://originalinsuranceinc.com/documentIDs"/>
    <value value="A12345"/>
  </identifier>
  <type value="document"/>
  <timestamp value="2019-07-21T11:01:00+05:00"/>
  <entry>
    <fullUrl value="http://originalinsuranceinc.com/fhir/Composition/1"/>
    <resource>
      <Composition>
        <id value="1"/>
        <status value="final"/>
        <type>
          <coding>
            <system value="http://hl7.org/fhir/us/davinci-pcde/CodeSystem/PCDEtempCodes"/>
            <code value="pcde"/>
          </coding>
        </type>
        <subject>
          <reference value="Patient/1"/>
        </subject>
        <date value="2019-07-21T23:09:00+07:00"/>
        <author>
          <reference value="Practitioner/1"/>
        </author>
        <title value="Example PCDE Document for Diabetes patient"/>
        <event>
          <detail>
            <reference value="Coverage/1"/>
          </detail>
        </event>
        <section>
          <code>
            <coding>
              <system value="http://hl7.org/fhir/us/davinci-pcde/CodeSystem/PCDEtempCodes"/>
              <code value="activeTreatment"/>
            </coding>
          </code>
          <section>
            <code>
              <coding>
                <system value="http://hl7.org/fhir/us/davinci-pcde/CodeSystem/PCDEtempCodes"/>
                <code value="treatment"/>
              </coding>
            </code>
            <entry>
              <reference value="CarePlan/1"/>
            </entry>
          </section>
          <section>
            <code>
              <coding>
                <system value="http://hl7.org/fhir/us/davinci-pcde/CodeSystem/PCDEtempCodes"/>
                <code value="priorCoverage"/>
              </coding>
            </code>
            <entry>
              <reference value="Claim/1"/>
            </entry>
            <entry>
              <reference value="ClaimResponse/1"/>
            </entry>
          </section>
          <section>
            <code>
              <coding>
                <system value="http://hl7.org/fhir/us/davinci-pcde/CodeSystem/PCDEtempCodes"/>
                <code value="supportingInfo"/>
              </coding>
            </code>
            <text>
              <status value="generated"/>
              <div xmlns="http://www.w3.org/1999/xhtml">
                                Joe Smith is a subscriber to Maryland Capital Insurance Company. During a regular physical, Dr. James Gardener, Joe’s primary care physician, diagnosed a potential heart problem, acute myocardial infarction; unspecified site. 
                                Dr. Gardener had referred Joe to Dr. Susan Watson, a cardiologist for a consultation.
                                During the consultation examination, Dr. Watson determined that Joe’s diagnosis requires hospitalization and a surgical procedure, a triple bypass venous graft. 
                                The operation and recovery was at Montgomery Hospital.
                            </div>
            </text>
            <entry>
              <reference value="DocumentReference/1"/>
            </entry>
          </section>
        </section>
      </Composition>
    </resource>
  </entry>
  <entry>
    <fullUrl value="http://originalinsuranceinc.com/fhir/Patient/1"/>
    <resource>
      <Patient>
        <id value="1"/>
        <identifier>
          <system value="http://originalinsuranceinc.com/fhir/NamingSystem/client-ids"/>
          <value value="444222222"/>
        </identifier>
        <name>
          <family value="SMITH"/>
          <given value="JOE"/>
        </name>
        <gender value="male"/>
      </Patient>
    </resource>
  </entry>
  <entry>
    <fullUrl value="http://originalinsuranceinc.com/fhir/Coverage/1"/>
    <resource>
      <Coverage>
        <id value="1"/>
        <status value="active"/>
        <subscriberId value="12345678"/>
        <beneficiary>
          <reference value="Patient/1"/>
        </beneficiary>
        <payor>
          <reference value="Organization/1"/>
        </payor>
      </Coverage>
    </resource>
  </entry>
  <entry>
    <fullUrl value="http://originalinsuranceinc.com/fhir/Organization/1"/>
    <resource>
      <Organization>
        <id value="1"/>
        <identifier>
          <system value="http://originalinsuranceinc.com/fhir/NamingSystem/ETIN"/>
          <value value="789312"/>
        </identifier>
        <active value="true"/>
        <name value="MARYLAND CAPITAL INSURANCE COMPANY"/>
      </Organization>
    </resource>
  </entry>
  <entry>
    <fullUrl value="http://originalinsuranceinc.com/fhir/CarePlan/1"/>
    <resource>
      <CarePlan>
        <id value="1"/>
        <instantiatesUri value="http://originalinsuranceinc.com/consultReviewURI"/>
        <status value="active"/>
        <intent value="order"/>
        <category>
          <coding>
            <system value="http://hl7.org/fhir/us/core/CodeSystem/careplan-category"/>
            <code value="assess-plan"/>
          </coding>
        </category>
        <subject>
          <reference value="Patient/1"/>
        </subject>
        <activity>
          <detail>
            <code>
              <coding>
                <system value="http://example.org/SERVICE_TYPE_CODE"/>
                <code value="3"/>
                <display value="Consultation"/>
              </coding>
            </code>
            <reasonReference>
              <reference value="Condition/1"/>
            </reasonReference>
            <status value="in-progress"/>
          </detail>
        </activity>
      </CarePlan>
    </resource>
  </entry>
  <entry>
    <fullUrl value="http://originalinsuranceinc.com/fhir/Claim/1"/>
    <resource>
      <Claim>
        <id value="1"/>
        <identifier>
          <system value="http://originalinsuranceinc.com/fhir/NamingSystem/PATIENT_EVENT_TRACE_NUMBER"/>
          <value value="111099"/>
        </identifier>
        <status value="active"/>
        <type>
          <coding>
            <system value="http://example.org/UM_REQUEST_CATEGORY_CODE"/>
            <code value="SC"/>
            <display value="Specialty Care Review"/>
          </coding>
        </type>
        <use value="preauthorization">
          <extension url="http://hl7.org/fhir/us/davinci-pas/StructureDefinition/extension-certificationType">
            <valueCode value="I"/>
          </extension>
        </use>
        <patient>
          <reference value="Patient/1"/>
        </patient>
        <created value="2019-07-20"/>
        <insurer>
          <reference value="Organization/1"/>
        </insurer>
        <provider>
          <reference value="PractitionerRole/1"/>
        </provider>
        <priority>
          <coding>
            <system value="http://terminology/hl7.org/CodeSystem/processpriority"/>
            <code value="normal"/>
            <display value="Normal"/>
          </coding>
        </priority>
        <prescription>
          <extension url="http://hl7.org/fhir/us/davinci-pas/StructureDefinition/extension-requestedService">
            <valueReference>
              <reference value="ServiceRequest/1"/>
            </valueReference>
          </extension>
          <display value="see requested service extension"/>
        </prescription>
        <diagnosis>
          <sequence value="1"/>
          <diagnosisReference>
            <reference value="Condition/1"/>
          </diagnosisReference>
        </diagnosis>
        <insurance>
          <sequence value="1"/>
          <focal value="true"/>
          <coverage>
            <reference value="Coverage/1"/>
          </coverage>
        </insurance>
      </Claim>
    </resource>
  </entry>
  <entry>
    <fullUrl value="http://originalinsuranceinc.com/fhir/ClaimResponse/1"/>
    <resource>
      <ClaimResponse>
        <id value="1"/>
        <extension url="http://hl7.org/fhir/us/davinci-pas/StructureDefinition/extension-reviewAction">
          <valueCode value="A1"/>
        </extension>
        <extension url="http://hl7.org/fhir/us/davinci-pas/StructureDefinition/extension-authorizedEventDate">
          <valuePeriod>
            <start value="2005-05-02"/>
            <end value="2005-06-02"/>
          </valuePeriod>
        </extension>
        <identifier>
          <system value="http://originalinsuranceinc.com/fhir/NamingSystem/REVIEW_IDENTIFICATION_NUMBER"/>
          <value value="AUTH0001"/>
        </identifier>
        <status value="active"/>
        <type>
          <coding>
            <system value="http://terminology.hl7.org/CodeSystem/claim-type"/>
            <code value="professional"/>
          </coding>
        </type>
        <use value="preauthorization"/>
        <patient>
          <reference value="Patient/1"/>
        </patient>
        <created value="2019-07-20"/>
        <insurer>
          <reference value="Organization/1"/>
        </insurer>
        <requestor>
          <reference value="PractitionerRole/1"/>
        </requestor>
        <outcome value="complete"/>
      </ClaimResponse>
    </resource>
  </entry>
  <entry>
    <fullUrl value="http://originalinsuranceinc.com/fhir/Practitioner/1"/>
    <resource>
      <Practitioner>
        <id value="1"/>
        <identifier>
          <system value="http://originalinsuranceinc.com/fhir/NamingSystem/ETIN"/>
          <value value="8189991234"/>
        </identifier>
        <name>
          <family value="GARDENER"/>
          <given value="JAMES"/>
        </name>
      </Practitioner>
    </resource>
  </entry>
  <entry>
    <fullUrl value="http://originalinsuranceinc.com/fhir/ServiceRequest/1"/>
    <resource>
      <ServiceRequest>
        <id value="1"/>
        <status value="active"/>
        <intent value="plan"/>
        <code>
          <coding>
            <system value="http://example.org/SERVICE_TYPE_CODE"/>
            <code value="3"/>
            <display value="Consultation"/>
          </coding>
        </code>
        <quantityQuantity>
          <value value="1"/>
          <unit value="VS"/>
        </quantityQuantity>
        <subject>
          <reference value="Patient/1"/>
        </subject>
        <performer>
          <reference value="PractitionerRole/1"/>
        </performer>
      </ServiceRequest>
    </resource>
  </entry>
  <entry>
    <fullUrl value="http://originalinsuranceinc.com/fhir/Condition/1"/>
    <resource>
      <Condition>
        <id value="1"/>
        <category>
          <coding>
            <system value="http://terminology.hl7.org/CodeSystem/condition-category"/>
            <code value="encounter-diagnosis"/>
          </coding>
        </category>
        <code>
          <coding>
            <system value="http://hl7.org/fhir/sid/icd-9-cm"/>
            <code value="410.90"/>
          </coding>
        </code>
        <subject>
          <reference value="Patient/1"/>
        </subject>
        <recordedDate value="2005-04-30"/>
      </Condition>
    </resource>
  </entry>
  <entry>
    <fullUrl value="http://originalinsuranceinc.com/fhir/PractitionerRole/1"/>
    <resource>
      <PractitionerRole>
        <id value="1"/>
        <practitioner>
          <reference value="Practitioner/2"/>
        </practitioner>
        <code>
          <coding>
            <system value="http://example.org/fhir/NamingSystem/ENTITY_IDENTIFIER_CODE"/>
            <code value="1P"/>
            <display value="Provider"/>
          </coding>
        </code>
      </PractitionerRole>
    </resource>
  </entry>
  <entry>
    <fullUrl value="http://originalinsuranceinc.com/fhir/Practitioner/2"/>
    <resource>
      <Practitioner>
        <id value="2"/>
        <identifier>
          <system value="http://originalinsuranceinc.com/fhir/NamingSystem/practitioner-id"/>
          <value value="987654321"/>
        </identifier>
        <name>
          <family value="WATSON"/>
          <given value="SUSAN"/>
        </name>
        <telecom>
          <system value="phone"/>
          <value value="4029993456"/>
        </telecom>
      </Practitioner>
    </resource>
  </entry>
  <entry>
    <fullUrl value="http://originalinsuranceinc.com/fhir/DocumentReference/1"/>
    <resource>
      <DocumentReference>
        <id value="1"/>
        <status value="current"/>
        <docStatus value="final"/>
        <type>
          <coding>
            <system value="http://loinc.org"/>
            <code value="18842-5"/>
          </coding>
        </type>
        <subject>
          <reference value="Patient/1"/>
        </subject>
        <author>
          <reference value="Practitioner/1"/>
        </author>
        <content>
          <attachment>
            <url value="http://originalinsuranceinc.com/fhir/Binary/DischargeSummaryDocument"/>
          </attachment>
        </content>
      </DocumentReference>
    </resource>
  </entry>
</Bundle>
